"trialType","whichPrime","rt","response","trial_index","time_elapsed","word","expectedCategory","expectedCategoryAsDisplayed","leftCategory","rightCategory","correct","question_order"
"prime","school-anxiety","null","null","2","87775","","","","","","",""
"iat","","1602","f","5","100702","biodiversity","nature","nature","nature","school","true",""
"iat","","1002","j","7","101968","syllabus","school","school","nature","school","true",""
"iat","","695","j","9","102921","library","school","school","nature","school","true",""
"iat","","877","f","11","104060","rainforest","nature","nature","nature","school","true",""
"iat","","741","j","13","105058","exam","school","school","nature","school","true",""
"iat","","489","j","15","105805","textbook","school","school","nature","school","true",""
"iat","","515","j","17","106576","assignment","school","school","nature","school","true",""
"iat","","966","j","19","107807","graduation","school","school","nature","school","true",""
"iat","","685","f","21","108750","carbon","nature","nature","nature","school","true",""
"iat","","584","f","23","109602","mountains","nature","nature","nature","school","true",""
"iat","","1278","f","25","111139","polar","nature","nature","nature","school","true",""
"iat","","499","f","27","111891","desert","nature","nature","nature","school","true",""
"iat","","1051","f","29","113204","flora","nature","nature","nature","school","true",""
"iat","","664","f","31","114129","ecosystem","nature","nature","nature","school","true",""
"iat","","1616","j","33","116014","professor","school","school","nature","school","true",""
"iat","","618","f","35","116898","ecosystem","nature","nature","nature","school","true",""
"iat","","529","j","37","117683","semester","school","school","nature","school","true",""
"iat","","571","f","39","118507","polar","nature","nature","nature","school","true",""
"iat","","661","j","41","119435","homework","school","school","nature","school","true",""
"iat","","591","f","43","120292","desert","nature","nature","nature","school","true",""
"iat","","645","j","45","121201","library","school","school","nature","school","true",""
"iat","","643","j","47","122100","homework","school","school","nature","school","true",""
"iat","","616","f","49","122974","mountains","nature","nature","nature","school","true",""
"iat","","684","f","51","123922","biodiversity","nature","nature","nature","school","true",""
"iat","","587","j","53","124765","syllabus","school","school","nature","school","true",""
"iat","","790","f","55","125817","flora","nature","nature","nature","school","true",""
"iat","","690","j","57","126767","curriculum","school","school","nature","school","true",""
"iat","","615","j","59","127650","textbook","school","school","nature","school","true",""
"iat","","1157","f","61","129074","atmosphere","nature","nature","nature","school","true",""
"iat","","625","f","63","129966","carbon","nature","nature","nature","school","true",""
"iat","","700","j","65","130931","curriculum","school","school","nature","school","true",""
"iat","","529","j","67","131719","graduation","school","school","nature","school","true",""
"iat","","637","j","69","132623","exam","school","school","nature","school","true",""
"iat","","610","f","71","133488","rainforest","nature","nature","nature","school","true",""
"iat","","843","j","73","134589","semester","school","school","nature","school","true",""
"iat","","1133","f","75","135976","ocean","nature","nature","nature","school","true",""
"iat","","1446","j","78","140113","soothing","serenity","serenity","anxiety","serenity","true",""
"iat","","677","f","80","141050","agitation","anxiety","anxiety","anxiety","serenity","true",""
"iat","","624","j","82","141929","balance","serenity","serenity","anxiety","serenity","true",""
"iat","","545","f","84","142741","stress","anxiety","anxiety","anxiety","serenity","true",""
"iat","","1127","j","86","144122","balance","serenity","serenity","anxiety","serenity","true",""
"iat","","523","j","88","144913","calm","serenity","serenity","anxiety","serenity","true",""
"iat","","576","f","90","145743","sweating","anxiety","anxiety","anxiety","serenity","true",""
"iat","","559","f","92","146559","fear","anxiety","anxiety","anxiety","serenity","true",""
"iat","","1100","j","94","147915","quietude","serenity","serenity","anxiety","serenity","true",""
"iat","","686","j","96","148865","composure","serenity","serenity","anxiety","serenity","true",""
"iat","","656","j","98","149786","tension","anxiety","anxiety","anxiety","serenity","false",""
"iat","","794","j","100","150847","tranquility","serenity","serenity","anxiety","serenity","true",""
"iat","","1369","f","102","152473","discomfort","anxiety","anxiety","anxiety","serenity","true",""
"iat","","507","f","104","153235","fear","anxiety","anxiety","anxiety","serenity","true",""
"iat","","667","f","106","154170","stress","anxiety","anxiety","anxiety","serenity","true",""
"iat","","538","f","108","154972","panic","anxiety","anxiety","anxiety","serenity","true",""
"iat","","590","f","110","155826","avoidance","anxiety","anxiety","anxiety","serenity","true",""
"iat","","585","j","112","156670","peace","serenity","serenity","anxiety","serenity","true",""
"iat","","564","j","114","157488","relaxation","serenity","serenity","anxiety","serenity","true",""
"iat","","592","f","116","158340","dread","anxiety","anxiety","anxiety","serenity","true",""
"iat","","551","j","118","159154","calm","serenity","serenity","anxiety","serenity","true",""
"iat","","724","f","120","160143","tension","anxiety","anxiety","anxiety","serenity","true",""
"iat","","852","f","122","161248","avoidance","anxiety","anxiety","anxiety","serenity","true",""
"iat","","681","f","124","162191","agitation","anxiety","anxiety","anxiety","serenity","true",""
"iat","","1581","f","126","164032","sweating","anxiety","anxiety","anxiety","serenity","true",""
"iat","","675","j","128","164970","tranquility","serenity","serenity","anxiety","serenity","true",""
"iat","","658","j","130","165885","soothing","serenity","serenity","anxiety","serenity","true",""
"iat","","474","j","132","166616","peace","serenity","serenity","anxiety","serenity","true",""
"iat","","618","j","134","167492","relaxation","serenity","serenity","anxiety","serenity","true",""
"iat","","695","j","136","168442","contentment","serenity","serenity","anxiety","serenity","true",""
"iat","","683","f","138","169393","panic","anxiety","anxiety","anxiety","serenity","true",""
"iat","","1208","f","140","170862","dread","anxiety","anxiety","anxiety","serenity","true",""
"iat","","412","f","142","171528","worry","anxiety","anxiety","anxiety","serenity","true",""
"iat","","701","j","144","172493","ease","serenity","serenity","anxiety","serenity","true",""
"iat","","587","j","146","173345","composure","serenity","serenity","anxiety","serenity","true",""
"iat","","815","j","148","174414","ease","serenity","serenity","anxiety","serenity","true",""
"iat","","2118","f","151","179449","textbook","school","school or serenity","school or serenity","nature or anxiety","true",""
"iat","","1286","j","153","181001","discomfort","anxiety","nature or anxiety","school or serenity","nature or anxiety","true",""
"iat","","1157","j","155","182422","biodiversity","nature","nature or anxiety","school or serenity","nature or anxiety","true",""
"iat","","1104","f","157","183784","relaxation","serenity","school or serenity","school or serenity","nature or anxiety","true",""
"iat","","1203","j","159","185242","avoidance","anxiety","nature or anxiety","school or serenity","nature or anxiety","true",""
"iat","","637","j","161","186142","tension","anxiety","nature or anxiety","school or serenity","nature or anxiety","true",""
"iat","","907","j","163","187311","mountains","nature","nature or anxiety","school or serenity","nature or anxiety","true",""
"iat","","1969","f","165","189546","semester","school","school or serenity","school or serenity","nature or anxiety","true",""
"iat","","1144","f","167","190957","peace","serenity","school or serenity","school or serenity","nature or anxiety","true",""
"iat","","725","f","169","191939","library","school","school or serenity","school or serenity","nature or anxiety","true",""
"iat","","807","j","171","193004","stress","anxiety","nature or anxiety","school or serenity","nature or anxiety","true",""
"iat","","856","f","173","194125","ease","serenity","school or serenity","school or serenity","nature or anxiety","true",""
"iat","","1204","f","175","195597","homework","school","school or serenity","school or serenity","nature or anxiety","true",""
"iat","","586","f","177","196450","professor","school","school or serenity","school or serenity","nature or anxiety","true",""
"iat","","1360","j","179","198076","atmosphere","nature","nature or anxiety","school or serenity","nature or anxiety","true",""
"iat","","1046","f","181","199389","balance","serenity","school or serenity","school or serenity","nature or anxiety","true",""
"iat","","2513","j","183","202165","sweating","anxiety","nature or anxiety","school or serenity","nature or anxiety","true",""
"iat","","822","f","185","203242","soothing","serenity","school or serenity","school or serenity","nature or anxiety","true",""
"iat","","847","f","187","204352","exam","school","school or serenity","school or serenity","nature or anxiety","true",""
"iat","","1171","f","189","205787","tranquility","serenity","school or serenity","school or serenity","nature or anxiety","true",""
"iat","","1028","f","191","207069","graduation","school","school or serenity","school or serenity","nature or anxiety","true",""
"iat","","1153","j","193","208477","desert","nature","nature or anxiety","school or serenity","nature or anxiety","true",""
"iat","","938","f","195","209669","worry","anxiety","nature or anxiety","school or serenity","nature or anxiety","false",""
"iat","","2213","f","197","212141","composure","serenity","school or serenity","school or serenity","nature or anxiety","true",""
"iat","","1085","j","199","213490","carbon","nature","nature or anxiety","school or serenity","nature or anxiety","true",""
"iat","","958","f","201","214713","assignment","school","school or serenity","school or serenity","nature or anxiety","true",""
"iat","","997","j","203","215968","rainforest","nature","nature or anxiety","school or serenity","nature or anxiety","true",""
"iat","","777","j","205","217008","flora","nature","nature or anxiety","school or serenity","nature or anxiety","true",""
"iat","","924","f","207","218193","curriculum","school","school or serenity","school or serenity","nature or anxiety","true",""
"iat","","656","j","209","219117","ecosystem","nature","nature or anxiety","school or serenity","nature or anxiety","true",""
"iat","","1171","j","211","220556","ocean","nature","nature or anxiety","school or serenity","nature or anxiety","true",""
"iat","","1336","f","213","222145","contentment","serenity","school or serenity","school or serenity","nature or anxiety","true",""
"iat","","791","j","215","223198","fear","anxiety","nature or anxiety","school or serenity","nature or anxiety","true",""
"iat","","600","j","217","224061","panic","anxiety","nature or anxiety","school or serenity","nature or anxiety","true",""
"iat","","965","f","219","225279","calm","serenity","school or serenity","school or serenity","nature or anxiety","true",""
"iat","","717","j","221","226256","agitation","anxiety","nature or anxiety","school or serenity","nature or anxiety","true",""
"iat","","1360","j","224","230221","biodiversity","nature","nature or serenity","school or anxiety","nature or serenity","true",""
"iat","","1279","f","226","231765","assignment","school","school or anxiety","school or anxiety","nature or serenity","true",""
"iat","","1371","j","228","233405","carbon","nature","nature or serenity","school or anxiety","nature or serenity","true",""
"iat","","990","f","230","234651","graduation","school","school or anxiety","school or anxiety","nature or serenity","true",""
"iat","","1030","f","232","235937","library","school","school or anxiety","school or anxiety","nature or serenity","true",""
"iat","","1507","j","234","237703","contentment","serenity","nature or serenity","school or anxiety","nature or serenity","true",""
"iat","","1304","j","236","239272","ocean","nature","nature or serenity","school or anxiety","nature or serenity","true",""
"iat","","1004","j","238","240534","quietude","serenity","nature or serenity","school or anxiety","nature or serenity","true",""
"iat","","1241","f","240","242031","homework","school","school or anxiety","school or anxiety","nature or serenity","true",""
"iat","","1949","j","242","244245","polar","nature","nature or serenity","school or anxiety","nature or serenity","true",""
"iat","","1064","f","244","245570","stress","anxiety","school or anxiety","school or anxiety","nature or serenity","true",""
"iat","","1342","j","246","247165","ecosystem","nature","nature or serenity","school or anxiety","nature or serenity","true",""
"iat","","1057","f","248","248475","panic","anxiety","school or anxiety","school or anxiety","nature or serenity","true",""
"iat","","912","j","250","249650","composure","serenity","nature or serenity","school or anxiety","nature or serenity","true",""
"iat","","651","j","252","250565","peace","serenity","nature or serenity","school or anxiety","nature or serenity","true",""
"iat","","717","f","254","251549","semester","school","school or anxiety","school or anxiety","nature or serenity","true",""
"iat","","627","f","256","252440","sweating","anxiety","school or anxiety","school or anxiety","nature or serenity","true",""
"iat","","1258","j","258","253957","desert","nature","nature or serenity","school or anxiety","nature or serenity","true",""
"iat","","873","f","260","255092","professor","school","school or anxiety","school or anxiety","nature or serenity","true",""
"iat","","493","f","262","255852","worry","anxiety","school or anxiety","school or anxiety","nature or serenity","true",""
"iat","","673","f","264","256783","syllabus","school","school or anxiety","school or anxiety","nature or serenity","true",""
"iat","","893","j","266","257941","tranquility","serenity","nature or serenity","school or anxiety","nature or serenity","true",""
"iat","","559","j","268","258765","rainforest","nature","nature or serenity","school or anxiety","nature or serenity","true",""
"iat","","766","f","270","259790","agitation","anxiety","school or anxiety","school or anxiety","nature or serenity","true",""
"iat","","483","f","272","260537","textbook","school","school or anxiety","school or anxiety","nature or serenity","true",""
"iat","","588","f","274","261391","mountains","nature","nature or serenity","school or anxiety","nature or serenity","false",""
"iat","","717","j","276","262365","soothing","serenity","nature or serenity","school or anxiety","nature or serenity","true",""
"iat","","640","f","278","263268","dread","anxiety","school or anxiety","school or anxiety","nature or serenity","true",""
"iat","","651","j","280","264185","balance","serenity","nature or serenity","school or anxiety","nature or serenity","true",""
"iat","","619","f","282","265062","avoidance","anxiety","school or anxiety","school or anxiety","nature or serenity","true",""
"iat","","708","f","284","266035","exam","school","school or anxiety","school or anxiety","nature or serenity","true",""
"iat","","965","j","286","267264","relaxation","serenity","nature or serenity","school or anxiety","nature or serenity","true",""
"iat","","1081","f","288","268609","tension","anxiety","school or anxiety","school or anxiety","nature or serenity","true",""
"iat","","1602","j","290","270472","atmosphere","nature","nature or serenity","school or anxiety","nature or serenity","true",""
"iat","","513","j","292","271241","ease","serenity","nature or serenity","school or anxiety","nature or serenity","true",""
"iat","","822","f","294","272322","discomfort","anxiety","school or anxiety","school or anxiety","nature or serenity","true",""
"questionnaire","","59984","{""Q0"":1,""Q1"":0,""Q2"":0,""Q3"":1,""Q4"":0,""Q5"":1,""Q6"":2,""Q7"":2,""Q8"":3,""Q9"":1}","296","332584","","","","","","","[0,1,2,3,4,5,6,7,8,9]"
