"trialType","whichPrime","rt","response","trial_index","time_elapsed","word","expectedCategory","expectedCategoryAsDisplayed","leftCategory","rightCategory","correct","question_order"
"prime","neutral","null","null","2","91142","","","","","","",""
"iat","","1282","j","5","107892","tension","anxiety","anxiety","serenity","anxiety","true",""
"iat","","860","f","7","109009","ease","serenity","serenity","serenity","anxiety","true",""
"iat","","757","f","9","110024","quietude","serenity","serenity","serenity","anxiety","true",""
"iat","","569","f","11","110849","peace","serenity","serenity","serenity","anxiety","true",""
"iat","","626","f","13","111731","calm","serenity","serenity","serenity","anxiety","true",""
"iat","","763","f","15","112753","relaxation","serenity","serenity","serenity","anxiety","true",""
"iat","","545","j","17","113552","discomfort","anxiety","anxiety","serenity","anxiety","true",""
"iat","","743","j","19","114552","sweating","anxiety","anxiety","serenity","anxiety","true",""
"iat","","823","j","21","115634","composure","serenity","serenity","serenity","anxiety","false",""
"iat","","675","j","23","116568","relaxation","serenity","serenity","serenity","anxiety","false",""
"iat","","777","j","25","117602","worry","anxiety","anxiety","serenity","anxiety","true",""
"iat","","790","f","27","118648","soothing","serenity","serenity","serenity","anxiety","true",""
"iat","","738","f","29","119641","quietude","serenity","serenity","serenity","anxiety","true",""
"iat","","558","f","31","120457","calm","serenity","serenity","serenity","anxiety","true",""
"iat","","604","j","33","121316","dread","anxiety","anxiety","serenity","anxiety","true",""
"iat","","522","j","35","122094","fear","anxiety","anxiety","serenity","anxiety","true",""
"iat","","524","j","37","122876","dread","anxiety","anxiety","serenity","anxiety","true",""
"iat","","1125","j","39","124256","contentment","serenity","serenity","serenity","anxiety","false",""
"iat","","887","f","41","125398","composure","serenity","serenity","serenity","anxiety","true",""
"iat","","556","f","43","126212","sweating","anxiety","anxiety","serenity","anxiety","false",""
"iat","","607","j","45","127078","contentment","serenity","serenity","serenity","anxiety","false",""
"iat","","612","j","47","127949","avoidance","anxiety","anxiety","serenity","anxiety","true",""
"iat","","435","j","49","128640","ease","serenity","serenity","serenity","anxiety","false",""
"iat","","585","f","51","129483","balance","serenity","serenity","serenity","anxiety","true",""
"iat","","597","f","53","130338","tranquility","serenity","serenity","serenity","anxiety","true",""
"iat","","510","j","55","131108","fear","anxiety","anxiety","serenity","anxiety","true",""
"iat","","524","j","57","131890","agitation","anxiety","anxiety","serenity","anxiety","true",""
"iat","","423","j","59","132572","stress","anxiety","anxiety","serenity","anxiety","true",""
"iat","","378","j","61","133209","panic","anxiety","anxiety","serenity","anxiety","true",""
"iat","","318","j","63","133784","tension","anxiety","anxiety","serenity","anxiety","true",""
"iat","","268","j","65","134305","discomfort","anxiety","anxiety","serenity","anxiety","true",""
"iat","","490","f","67","135054","peace","serenity","serenity","serenity","anxiety","true",""
"iat","","399","f","69","135712","avoidance","anxiety","anxiety","serenity","anxiety","false",""
"iat","","537","j","71","136504","tranquility","serenity","serenity","serenity","anxiety","false",""
"iat","","431","j","73","137193","panic","anxiety","anxiety","serenity","anxiety","true",""
"iat","","155","j","75","137605","agitation","anxiety","anxiety","serenity","anxiety","true",""
"iat","","936","f","78","143885","curriculum","school","school","school","nature","true",""
"iat","","538","f","80","144679","library","school","school","school","nature","true",""
"iat","","614","j","82","145551","ecosystem","nature","nature","school","nature","true",""
"iat","","551","f","84","146358","homework","school","school","school","nature","true",""
"iat","","430","f","86","147045","assignment","school","school","school","nature","true",""
"iat","","359","f","88","147657","graduation","school","school","school","nature","true",""
"iat","","307","f","90","148220","desert","nature","nature","school","nature","false",""
"iat","","507","f","92","148986","semester","school","school","school","nature","true",""
"iat","","581","j","94","149824","biodiversity","nature","nature","school","nature","true",""
"iat","","530","f","96","150613","professor","school","school","school","nature","true",""
"iat","","857","f","98","151727","syllabus","school","school","school","nature","true",""
"iat","","360","f","100","152344","semester","school","school","school","nature","true",""
"iat","","332","f","102","152932","assignment","school","school","school","nature","true",""
"iat","","229","f","104","153418","rainforest","nature","nature","school","nature","false",""
"iat","","653","j","106","154325","flora","nature","nature","school","nature","true",""
"iat","","473","f","108","155053","library","school","school","school","nature","true",""
"iat","","451","f","110","155762","textbook","school","school","school","nature","true",""
"iat","","508","f","112","156527","carbon","nature","nature","school","nature","false",""
"iat","","677","j","114","157458","polar","nature","nature","school","nature","true",""
"iat","","437","j","116","158153","ocean","nature","nature","school","nature","true",""
"iat","","472","j","118","158883","ecosystem","nature","nature","school","nature","true",""
"iat","","349","f","120","159486","flora","nature","nature","school","nature","false",""
"iat","","339","j","122","160081","mountains","nature","nature","school","nature","true",""
"iat","","492","f","124","160829","exam","school","school","school","nature","true",""
"iat","","276","f","126","161363","professor","school","school","school","nature","true",""
"iat","","244","f","128","161865","rainforest","nature","nature","school","nature","false",""
"iat","","222","j","130","162345","atmosphere","nature","nature","school","nature","true",""
"iat","","287","f","132","162888","atmosphere","nature","nature","school","nature","false",""
"iat","","47","j","134","163192","carbon","nature","nature","school","nature","true",""
"iat","","80","j","136","163530","curriculum","school","school","school","nature","false",""
"iat","","137","j","138","163923","biodiversity","nature","nature","school","nature","true",""
"iat","","106","j","140","164287","textbook","school","school","school","nature","false",""
"iat","","24","j","142","164569","exam","school","school","school","nature","false",""
"iat","","16","j","144","164843","graduation","school","school","school","nature","false",""
"iat","","152","j","146","165252","ocean","nature","nature","school","nature","true",""
"iat","","48","f","148","165560","mountains","nature","nature","school","nature","false",""
"iat","","257","f","151","166792","agitation","anxiety","nature or anxiety","nature or anxiety","school or serenity","true",""
"iat","","43","f","153","167091","textbook","school","school or serenity","nature or anxiety","school or serenity","false",""
"iat","","142","j","155","167491","fear","anxiety","nature or anxiety","nature or anxiety","school or serenity","false",""
"iat","","21","f","157","167770","polar","nature","nature or anxiety","nature or anxiety","school or serenity","true",""
"iat","","25","j","159","168051","flora","nature","nature or anxiety","nature or anxiety","school or serenity","false",""
"iat","","122","j","161","168426","ecosystem","nature","nature or anxiety","nature or anxiety","school or serenity","false",""
"iat","","82","f","163","168764","syllabus","school","school or serenity","nature or anxiety","school or serenity","false",""
"iat","","162","j","165","169183","library","school","school or serenity","nature or anxiety","school or serenity","true",""
"iat","","86","f","167","169523","carbon","nature","nature or anxiety","nature or anxiety","school or serenity","true",""
"iat","","0","f","169","169781","exam","school","school or serenity","nature or anxiety","school or serenity","false",""
"iat","","4","f","171","170043","curriculum","school","school or serenity","nature or anxiety","school or serenity","false",""
"iat","","140","j","173","170435","ocean","nature","nature or anxiety","nature or anxiety","school or serenity","false",""
"iat","","184","j","175","170872","graduation","school","school or serenity","nature or anxiety","school or serenity","true",""
"iat","","49","f","177","171178","worry","anxiety","nature or anxiety","nature or anxiety","school or serenity","true",""
"iat","","1","f","179","171436","relaxation","serenity","school or serenity","nature or anxiety","school or serenity","false",""
"iat","","6","f","181","171701","soothing","serenity","school or serenity","nature or anxiety","school or serenity","false",""
"iat","","2","f","183","171960","composure","serenity","school or serenity","nature or anxiety","school or serenity","false",""
"iat","","10","f","185","172223","biodiversity","nature","nature or anxiety","nature or anxiety","school or serenity","true",""
"iat","","101","f","187","172578","rainforest","nature","nature or anxiety","nature or anxiety","school or serenity","true",""
"iat","","137","j","189","172974","quietude","serenity","school or serenity","nature or anxiety","school or serenity","true",""
"iat","","182","j","191","173415","assignment","school","school or serenity","nature or anxiety","school or serenity","true",""
"iat","","99","f","193","173772","panic","anxiety","nature or anxiety","nature or anxiety","school or serenity","true",""
"iat","","50","f","195","174081","mountains","nature","nature or anxiety","nature or anxiety","school or serenity","true",""
"iat","","78","f","197","174412","balance","serenity","school or serenity","nature or anxiety","school or serenity","false",""
"iat","","45","f","199","174712","homework","school","school or serenity","nature or anxiety","school or serenity","false",""
"iat","","17","j","201","174984","desert","nature","nature or anxiety","nature or anxiety","school or serenity","false",""
"iat","","6","f","203","175248","sweating","anxiety","nature or anxiety","nature or anxiety","school or serenity","true",""
"iat","","21","f","205","175528","atmosphere","nature","nature or anxiety","nature or anxiety","school or serenity","true",""
"iat","","160","j","207","175944","semester","school","school or serenity","nature or anxiety","school or serenity","true",""
"iat","","186","f","209","176383","professor","school","school or serenity","nature or anxiety","school or serenity","false",""
"iat","","17","f","211","176654","contentment","serenity","school or serenity","nature or anxiety","school or serenity","false",""
"iat","","197","j","213","177104","peace","serenity","school or serenity","nature or anxiety","school or serenity","true",""
"iat","","8","j","215","177369","stress","anxiety","nature or anxiety","nature or anxiety","school or serenity","false",""
"iat","","228","j","217","177851","dread","anxiety","nature or anxiety","nature or anxiety","school or serenity","false",""
"iat","","42","f","219","178148","calm","serenity","school or serenity","nature or anxiety","school or serenity","false",""
"iat","","26","f","221","178429","avoidance","anxiety","nature or anxiety","nature or anxiety","school or serenity","true",""
"iat","","268","j","224","179988","soothing","serenity","nature or serenity","school or anxiety","nature or serenity","true",""
"iat","","95","f","226","180339","desert","nature","nature or serenity","school or anxiety","nature or serenity","false",""
"iat","","9","j","228","180606","quietude","serenity","nature or serenity","school or anxiety","nature or serenity","true",""
"iat","","102","f","230","180962","contentment","serenity","nature or serenity","school or anxiety","nature or serenity","false",""
"iat","","3","f","232","181224","discomfort","anxiety","school or anxiety","school or anxiety","nature or serenity","true",""
"iat","","24","j","234","181502","professor","school","school or anxiety","school or anxiety","nature or serenity","false",""
"iat","","46","f","236","181807","avoidance","anxiety","school or anxiety","school or anxiety","nature or serenity","true",""
"iat","","41","f","238","182107","dread","anxiety","school or anxiety","school or anxiety","nature or serenity","true",""
"iat","","8","f","240","182371","composure","serenity","nature or serenity","school or anxiety","nature or serenity","false",""
"iat","","23","f","242","182651","homework","school","school or anxiety","school or anxiety","nature or serenity","true",""
"iat","","54","f","244","182963","mountains","nature","nature or serenity","school or anxiety","nature or serenity","false",""
"iat","","228","j","246","183446","flora","nature","nature or serenity","school or anxiety","nature or serenity","true",""
"iat","","188","f","248","183892","fear","anxiety","school or anxiety","school or anxiety","nature or serenity","true",""
"iat","","173","j","250","184320","curriculum","school","school or anxiety","school or anxiety","nature or serenity","false",""
"iat","","79","f","252","184660","ecosystem","nature","nature or serenity","school or anxiety","nature or serenity","false",""
"iat","","132","j","254","185047","atmosphere","nature","nature or serenity","school or anxiety","nature or serenity","true",""
"iat","","211","j","256","185514","worry","anxiety","school or anxiety","school or anxiety","nature or serenity","false",""
"iat","","18","f","258","185787","tranquility","serenity","nature or serenity","school or anxiety","nature or serenity","false",""
"iat","","24","f","260","186067","stress","anxiety","school or anxiety","school or anxiety","nature or serenity","true",""
"iat","","161","j","262","186483","textbook","school","school or anxiety","school or anxiety","nature or serenity","false",""
"iat","","123","f","264","186862","agitation","anxiety","school or anxiety","school or anxiety","nature or serenity","true",""
"iat","","23","j","266","187142","library","school","school or anxiety","school or anxiety","nature or serenity","false",""
"iat","","181","f","268","187582","relaxation","serenity","nature or serenity","school or anxiety","nature or serenity","false",""
"iat","","65","f","270","187900","rainforest","nature","nature or serenity","school or anxiety","nature or serenity","false",""
"iat","","135","j","272","188288","syllabus","school","school or anxiety","school or anxiety","nature or serenity","false",""
"iat","","81","f","274","188622","polar","nature","nature or serenity","school or anxiety","nature or serenity","false",""
"iat","","140","j","276","189016","balance","serenity","nature or serenity","school or anxiety","nature or serenity","true",""
"iat","","13","f","278","189284","sweating","anxiety","school or anxiety","school or anxiety","nature or serenity","true",""
"iat","","190","f","280","189732","semester","school","school or anxiety","school or anxiety","nature or serenity","true",""
"iat","","1","j","282","189991","panic","anxiety","school or anxiety","school or anxiety","nature or serenity","false",""
"iat","","215","f","284","190462","ease","serenity","nature or serenity","school or anxiety","nature or serenity","false",""
"iat","","173","j","286","190893","calm","serenity","nature or serenity","school or anxiety","nature or serenity","true",""
"iat","","211","j","288","191357","biodiversity","nature","nature or serenity","school or anxiety","nature or serenity","true",""
"iat","","8","f","290","191619","peace","serenity","nature or serenity","school or anxiety","nature or serenity","false",""
"iat","","6","f","292","191882","tension","anxiety","school or anxiety","school or anxiety","nature or serenity","true",""
"iat","","141","j","294","192281","assignment","school","school or anxiety","school or anxiety","nature or serenity","false",""
"questionnaire","","19562","{""Q0"":1,""Q1"":1,""Q2"":1,""Q3"":1,""Q4"":1,""Q5"":1,""Q6"":1,""Q7"":1,""Q8"":1,""Q9"":1}","296","212106","","","","","","","[0,1,2,3,4,5,6,7,8,9]"
