"trialType","whichPrime","rt","response","trial_index","time_elapsed","word","expectedCategory","expectedCategoryAsDisplayed","leftCategory","rightCategory","correct","question_order"
"prime","school-anxiety","null","null","2","102055","","","","","","",""
"iat","","929","f","5","119385","professor","school","school","school","nature","true",""
"iat","","782","f","7","120427","semester","school","school","school","nature","true",""
"iat","","843","j","9","121524","desert","nature","nature","school","nature","true",""
"iat","","904","j","11","122682","carbon","nature","nature","school","nature","true",""
"iat","","818","f","13","123753","library","school","school","school","nature","true",""
"iat","","1400","j","15","125407","mountains","nature","nature","school","nature","true",""
"iat","","676","f","17","126336","exam","school","school","school","nature","true",""
"iat","","854","f","19","127443","curriculum","school","school","school","nature","true",""
"iat","","701","j","21","128398","graduation","school","school","school","nature","false",""
"iat","","868","f","23","129519","assignment","school","school","school","nature","true",""
"iat","","959","j","25","130731","biodiversity","nature","nature","school","nature","true",""
"iat","","637","j","27","131621","atmosphere","nature","nature","school","nature","true",""
"iat","","662","f","29","132536","semester","school","school","school","nature","true",""
"iat","","803","j","31","133592","polar","nature","nature","school","nature","true",""
"iat","","578","j","33","134423","polar","nature","nature","school","nature","true",""
"iat","","712","j","35","135388","carbon","nature","nature","school","nature","true",""
"iat","","732","j","37","136374","rainforest","nature","nature","school","nature","true",""
"iat","","643","f","39","137270","textbook","school","school","school","nature","true",""
"iat","","707","f","41","138230","professor","school","school","school","nature","true",""
"iat","","668","f","43","139152","graduation","school","school","school","nature","true",""
"iat","","681","f","45","140085","textbook","school","school","school","nature","true",""
"iat","","570","f","47","140907","library","school","school","school","nature","true",""
"iat","","633","j","49","141793","biodiversity","nature","nature","school","nature","true",""
"iat","","802","j","51","142848","ocean","nature","nature","school","nature","true",""
"iat","","645","j","53","143744","mountains","nature","nature","school","nature","true",""
"iat","","652","j","55","144650","desert","nature","nature","school","nature","true",""
"iat","","641","j","57","145543","flora","nature","nature","school","nature","true",""
"iat","","742","f","59","146539","curriculum","school","school","school","nature","true",""
"iat","","632","j","61","147423","atmosphere","nature","nature","school","nature","true",""
"iat","","656","f","63","148332","syllabus","school","school","school","nature","true",""
"iat","","595","f","65","149181","homework","school","school","school","nature","true",""
"iat","","740","f","67","150176","homework","school","school","school","nature","true",""
"iat","","568","f","69","150998","exam","school","school","school","nature","true",""
"iat","","592","j","71","151846","rainforest","nature","nature","school","nature","true",""
"iat","","677","j","73","152777","flora","nature","nature","school","nature","true",""
"iat","","1969","j","75","155001","ecosystem","nature","nature","school","nature","true",""
"iat","","2636","j","78","161401","contentment","serenity","serenity","anxiety","serenity","true",""
"iat","","1138","f","80","162796","calm","serenity","serenity","anxiety","serenity","false",""
"iat","","1802","f","82","164855","avoidance","anxiety","anxiety","anxiety","serenity","true",""
"iat","","984","j","84","166094","balance","serenity","serenity","anxiety","serenity","true",""
"iat","","883","f","86","167233","stress","anxiety","anxiety","anxiety","serenity","true",""
"iat","","1099","f","88","168586","dread","anxiety","anxiety","anxiety","serenity","true",""
"iat","","1011","j","90","169852","soothing","serenity","serenity","anxiety","serenity","true",""
"iat","","1580","j","92","171686","relaxation","serenity","serenity","anxiety","serenity","true",""
"iat","","776","f","94","172718","dread","anxiety","anxiety","anxiety","serenity","true",""
"iat","","1735","j","96","174708","peace","serenity","serenity","anxiety","serenity","true",""
"iat","","758","f","98","175720","tension","anxiety","anxiety","anxiety","serenity","true",""
"iat","","827","f","100","176803","discomfort","anxiety","anxiety","anxiety","serenity","true",""
"iat","","790","f","102","177848","contentment","serenity","serenity","anxiety","serenity","false",""
"iat","","2660","f","104","180762","quietude","serenity","serenity","anxiety","serenity","false",""
"iat","","707","f","106","181724","quietude","serenity","serenity","anxiety","serenity","false",""
"iat","","1401","f","108","183380","worry","anxiety","anxiety","anxiety","serenity","true",""
"iat","","781","f","110","184415","agitation","anxiety","anxiety","anxiety","serenity","true",""
"iat","","725","j","112","185394","tranquility","serenity","serenity","anxiety","serenity","true",""
"iat","","764","f","114","186412","worry","anxiety","anxiety","anxiety","serenity","true",""
"iat","","824","f","116","187490","agitation","anxiety","anxiety","anxiety","serenity","true",""
"iat","","707","f","118","188452","fear","anxiety","anxiety","anxiety","serenity","true",""
"iat","","815","j","120","189521","balance","serenity","serenity","anxiety","serenity","true",""
"iat","","734","j","122","190509","composure","serenity","serenity","anxiety","serenity","true",""
"iat","","688","j","124","191451","soothing","serenity","serenity","anxiety","serenity","true",""
"iat","","637","f","126","192342","avoidance","anxiety","anxiety","anxiety","serenity","true",""
"iat","","681","j","128","193277","tranquility","serenity","serenity","anxiety","serenity","true",""
"iat","","737","j","130","194269","peace","serenity","serenity","anxiety","serenity","true",""
"iat","","842","f","132","195366","sweating","anxiety","anxiety","anxiety","serenity","true",""
"iat","","770","f","134","196391","fear","anxiety","anxiety","anxiety","serenity","true",""
"iat","","607","f","136","197252","panic","anxiety","anxiety","anxiety","serenity","true",""
"iat","","569","f","138","198075","discomfort","anxiety","anxiety","anxiety","serenity","true",""
"iat","","954","j","140","199285","composure","serenity","serenity","anxiety","serenity","true",""
"iat","","1185","f","142","200724","sweating","anxiety","anxiety","anxiety","serenity","true",""
"iat","","604","f","144","201583","panic","anxiety","anxiety","anxiety","serenity","true",""
"iat","","836","j","146","202674","ease","serenity","serenity","anxiety","serenity","true",""
"iat","","568","j","148","203497","relaxation","serenity","serenity","anxiety","serenity","true",""
"iat","","1569","f","151","215182","contentment","serenity","nature or serenity","nature or serenity","school or anxiety","true",""
"iat","","923","j","153","216359","stress","anxiety","school or anxiety","nature or serenity","school or anxiety","true",""
"iat","","841","j","155","217455","curriculum","school","school or anxiety","nature or serenity","school or anxiety","true",""
"iat","","1194","j","157","218903","tension","anxiety","school or anxiety","nature or serenity","school or anxiety","true",""
"iat","","632","j","159","219790","homework","school","school or anxiety","nature or serenity","school or anxiety","true",""
"iat","","755","f","161","220799","desert","nature","nature or serenity","nature or serenity","school or anxiety","true",""
"iat","","1085","f","163","222138","soothing","serenity","nature or serenity","nature or serenity","school or anxiety","true",""
"iat","","665","j","165","223058","syllabus","school","school or anxiety","nature or serenity","school or anxiety","true",""
"iat","","766","f","167","224079","worry","anxiety","school or anxiety","nature or serenity","school or anxiety","false",""
"iat","","981","f","169","225314","ocean","nature","nature or serenity","nature or serenity","school or anxiety","true",""
"iat","","715","f","171","226283","relaxation","serenity","nature or serenity","nature or serenity","school or anxiety","true",""
"iat","","613","f","173","227150","ecosystem","nature","nature or serenity","nature or serenity","school or anxiety","true",""
"iat","","873","j","175","228278","avoidance","anxiety","school or anxiety","nature or serenity","school or anxiety","true",""
"iat","","632","j","177","229164","graduation","school","school or anxiety","nature or serenity","school or anxiety","true",""
"iat","","1489","j","179","230906","discomfort","anxiety","school or anxiety","nature or serenity","school or anxiety","true",""
"iat","","732","j","181","231892","dread","anxiety","school or anxiety","nature or serenity","school or anxiety","true",""
"iat","","1077","f","183","233223","rainforest","nature","nature or serenity","nature or serenity","school or anxiety","true",""
"iat","","1024","f","185","234501","atmosphere","nature","nature or serenity","nature or serenity","school or anxiety","true",""
"iat","","585","f","187","235338","polar","nature","nature or serenity","nature or serenity","school or anxiety","true",""
"iat","","582","f","189","236173","flora","nature","nature or serenity","nature or serenity","school or anxiety","true",""
"iat","","656","j","191","237083","exam","school","school or anxiety","nature or serenity","school or anxiety","true",""
"iat","","960","f","193","238297","ease","serenity","nature or serenity","nature or serenity","school or anxiety","true",""
"iat","","2333","j","195","240884","agitation","anxiety","school or anxiety","nature or serenity","school or anxiety","true",""
"iat","","686","j","197","241824","library","school","school or anxiety","nature or serenity","school or anxiety","true",""
"iat","","1616","f","199","243694","tranquility","serenity","nature or serenity","nature or serenity","school or anxiety","true",""
"iat","","735","j","201","244684","panic","anxiety","school or anxiety","nature or serenity","school or anxiety","true",""
"iat","","567","j","203","245504","assignment","school","school or anxiety","nature or serenity","school or anxiety","true",""
"iat","","520","j","205","246278","professor","school","school or anxiety","nature or serenity","school or anxiety","true",""
"iat","","1605","f","207","248138","semester","school","school or anxiety","nature or serenity","school or anxiety","false",""
"iat","","1174","f","209","249566","peace","serenity","nature or serenity","nature or serenity","school or anxiety","true",""
"iat","","994","f","211","250815","balance","serenity","nature or serenity","nature or serenity","school or anxiety","true",""
"iat","","682","f","213","251750","carbon","nature","nature or serenity","nature or serenity","school or anxiety","true",""
"iat","","586","f","215","252591","biodiversity","nature","nature or serenity","nature or serenity","school or anxiety","true",""
"iat","","967","f","217","253812","quietude","serenity","nature or serenity","nature or serenity","school or anxiety","true",""
"iat","","876","j","219","254943","fear","anxiety","school or anxiety","nature or serenity","school or anxiety","true",""
"iat","","696","f","221","255891","composure","serenity","nature or serenity","nature or serenity","school or anxiety","true",""
"iat","","976","f","224","260432","soothing","serenity","school or serenity","school or serenity","nature or anxiety","true",""
"iat","","741","j","226","261428","desert","nature","nature or anxiety","school or serenity","nature or anxiety","true",""
"iat","","1362","f","228","263045","syllabus","school","school or serenity","school or serenity","nature or anxiety","true",""
"iat","","1340","j","230","264639","panic","anxiety","nature or anxiety","school or serenity","nature or anxiety","true",""
"iat","","596","j","232","265489","mountains","nature","nature or anxiety","school or serenity","nature or anxiety","true",""
"iat","","752","f","234","266495","sweating","anxiety","nature or anxiety","school or serenity","nature or anxiety","false",""
"iat","","1704","j","236","268454","fear","anxiety","nature or anxiety","school or serenity","nature or anxiety","true",""
"iat","","1181","f","238","269889","curriculum","school","school or serenity","school or serenity","nature or anxiety","true",""
"iat","","696","f","240","270840","textbook","school","school or serenity","school or serenity","nature or anxiety","true",""
"iat","","710","f","242","271805","semester","school","school or serenity","school or serenity","nature or anxiety","true",""
"iat","","756","f","244","272816","library","school","school or serenity","school or serenity","nature or anxiety","true",""
"iat","","2535","f","246","275605","graduation","school","school or serenity","school or serenity","nature or anxiety","true",""
"iat","","1999","j","248","277859","rainforest","nature","nature or anxiety","school or serenity","nature or anxiety","true",""
"iat","","1095","j","250","279209","balance","serenity","school or serenity","school or serenity","nature or anxiety","false",""
"iat","","1211","j","252","280674","peace","serenity","school or serenity","school or serenity","nature or anxiety","false",""
"iat","","1241","j","254","282168","ecosystem","nature","nature or anxiety","school or serenity","nature or anxiety","true",""
"iat","","1984","j","256","284407","tension","anxiety","nature or anxiety","school or serenity","nature or anxiety","true",""
"iat","","823","f","258","285483","homework","school","school or serenity","school or serenity","nature or anxiety","true",""
"iat","","715","j","260","286452","dread","anxiety","nature or anxiety","school or serenity","nature or anxiety","true",""
"iat","","1044","f","262","287750","polar","nature","nature or anxiety","school or serenity","nature or anxiety","false",""
"iat","","2214","j","264","290219","carbon","nature","nature or anxiety","school or serenity","nature or anxiety","true",""
"iat","","924","j","266","291397","avoidance","anxiety","nature or anxiety","school or serenity","nature or anxiety","true",""
"iat","","1050","j","268","292701","ocean","nature","nature or anxiety","school or serenity","nature or anxiety","true",""
"iat","","1477","f","270","294432","contentment","serenity","school or serenity","school or serenity","nature or anxiety","true",""
"iat","","1057","f","272","295743","relaxation","serenity","school or serenity","school or serenity","nature or anxiety","true",""
"iat","","3887","j","274","299884","ease","serenity","school or serenity","school or serenity","nature or anxiety","false",""
"iat","","1156","f","276","301293","calm","serenity","school or serenity","school or serenity","nature or anxiety","true",""
"iat","","1183","j","278","302729","worry","anxiety","nature or anxiety","school or serenity","nature or anxiety","true",""
"iat","","739","j","280","303722","stress","anxiety","nature or anxiety","school or serenity","nature or anxiety","true",""
"iat","","964","f","282","304940","exam","school","school or serenity","school or serenity","nature or anxiety","true",""
"iat","","1598","j","284","306792","atmosphere","nature","nature or anxiety","school or serenity","nature or anxiety","true",""
"iat","","830","f","286","307877","agitation","anxiety","nature or anxiety","school or serenity","nature or anxiety","false",""
"iat","","2383","f","288","310514","quietude","serenity","school or serenity","school or serenity","nature or anxiety","true",""
"iat","","692","f","290","311460","composure","serenity","school or serenity","school or serenity","nature or anxiety","true",""
"iat","","937","j","292","312652","biodiversity","nature","nature or anxiety","school or serenity","nature or anxiety","true",""
"iat","","1298","f","294","314204","assignment","school","school or serenity","school or serenity","nature or anxiety","true",""
"questionnaire","","35846","{""Q0"":3,""Q1"":3,""Q2"":0,""Q3"":1,""Q4"":1,""Q5"":2,""Q6"":3,""Q7"":4,""Q8"":4,""Q9"":3}","296","350323","","","","","","","[0,1,2,3,4,5,6,7,8,9]"
