"trialType","whichPrime","rt","response","trial_index","time_elapsed","word","expectedCategory","expectedCategoryAsDisplayed","leftCategory","rightCategory","correct","question_order"
"prime","neutral","null","null","2","81773","","","","","","",""
"iat","","1847","j","5","143024","worry","anxiety","anxiety","serenity","anxiety","true",""
"iat","","964","f","7","144243","tranquility","serenity","serenity","serenity","anxiety","true",""
"iat","","958","f","9","145457","quietude","serenity","serenity","serenity","anxiety","true",""
"iat","","528","f","11","146240","contentment","serenity","serenity","serenity","anxiety","true",""
"iat","","485","j","13","146979","sweating","anxiety","anxiety","serenity","anxiety","true",""
"iat","","459","j","15","147694","fear","anxiety","anxiety","serenity","anxiety","true",""
"iat","","481","j","17","148430","tension","anxiety","anxiety","serenity","anxiety","true",""
"iat","","559","j","19","149244","worry","anxiety","anxiety","serenity","anxiety","true",""
"iat","","482","f","21","149981","soothing","serenity","serenity","serenity","anxiety","true",""
"iat","","646","j","23","150881","sweating","anxiety","anxiety","serenity","anxiety","true",""
"iat","","591","j","25","151727","fear","anxiety","anxiety","serenity","anxiety","true",""
"iat","","508","f","27","152489","composure","serenity","serenity","serenity","anxiety","true",""
"iat","","446","f","29","153190","stress","anxiety","anxiety","serenity","anxiety","false",""
"iat","","1310","j","31","154753","dread","anxiety","anxiety","serenity","anxiety","true",""
"iat","","610","f","33","155619","balance","serenity","serenity","serenity","anxiety","true",""
"iat","","528","f","35","156401","contentment","serenity","serenity","serenity","anxiety","true",""
"iat","","599","j","37","157254","stress","anxiety","anxiety","serenity","anxiety","true",""
"iat","","531","j","39","158040","panic","anxiety","anxiety","serenity","anxiety","true",""
"iat","","512","j","41","158808","avoidance","anxiety","anxiety","serenity","anxiety","true",""
"iat","","442","j","43","159505","agitation","anxiety","anxiety","serenity","anxiety","true",""
"iat","","561","j","45","160319","dread","anxiety","anxiety","serenity","anxiety","true",""
"iat","","764","f","47","161337","relaxation","serenity","serenity","serenity","anxiety","true",""
"iat","","723","f","49","162315","balance","serenity","serenity","serenity","anxiety","true",""
"iat","","530","f","51","163100","peace","serenity","serenity","serenity","anxiety","true",""
"iat","","444","f","53","163800","ease","serenity","serenity","serenity","anxiety","true",""
"iat","","406","f","55","164461","peace","serenity","serenity","serenity","anxiety","true",""
"iat","","734","j","57","165450","discomfort","anxiety","anxiety","serenity","anxiety","true",""
"iat","","512","f","59","166217","agitation","anxiety","anxiety","serenity","anxiety","false",""
"iat","","1664","f","61","168135","relaxation","serenity","serenity","serenity","anxiety","true",""
"iat","","782","f","63","169172","soothing","serenity","serenity","serenity","anxiety","true",""
"iat","","457","j","65","169883","avoidance","anxiety","anxiety","serenity","anxiety","true",""
"iat","","498","f","67","170635","discomfort","anxiety","anxiety","serenity","anxiety","false",""
"iat","","707","f","69","171596","calm","serenity","serenity","serenity","anxiety","true",""
"iat","","868","f","71","172719","tranquility","serenity","serenity","serenity","anxiety","true",""
"iat","","763","f","73","173737","composure","serenity","serenity","serenity","anxiety","true",""
"iat","","632","f","75","174624","quietude","serenity","serenity","serenity","anxiety","true",""
"iat","","2640","j","78","178496","assignment","school","school","nature","school","true",""
"iat","","654","f","80","179403","rainforest","nature","nature","nature","school","true",""
"iat","","862","f","82","180519","biodiversity","nature","nature","nature","school","true",""
"iat","","768","j","84","181541","professor","school","school","nature","school","true",""
"iat","","777","f","86","182572","exam","school","school","nature","school","false",""
"iat","","874","f","88","183701","semester","school","school","nature","school","false",""
"iat","","1178","j","90","185133","professor","school","school","nature","school","true",""
"iat","","609","j","92","185994","ocean","nature","nature","nature","school","false",""
"iat","","985","j","94","187234","library","school","school","nature","school","true",""
"iat","","528","j","96","188016","curriculum","school","school","nature","school","true",""
"iat","","404","j","98","188674","carbon","nature","nature","nature","school","false",""
"iat","","747","j","100","189676","homework","school","school","nature","school","true",""
"iat","","529","j","102","190460","textbook","school","school","nature","school","true",""
"iat","","446","j","104","191162","homework","school","school","nature","school","true",""
"iat","","537","f","106","191953","exam","school","school","nature","school","false",""
"iat","","1969","j","108","194176","textbook","school","school","nature","school","true",""
"iat","","545","f","110","194976","atmosphere","nature","nature","nature","school","true",""
"iat","","613","f","112","195844","biodiversity","nature","nature","nature","school","true",""
"iat","","542","f","114","196639","mountains","nature","nature","nature","school","true",""
"iat","","1999","j","116","198894","graduation","school","school","nature","school","true",""
"iat","","553","j","118","199701","graduation","school","school","nature","school","true",""
"iat","","649","j","120","200605","syllabus","school","school","nature","school","true",""
"iat","","550","f","122","201410","flora","nature","nature","nature","school","true",""
"iat","","670","f","124","202335","desert","nature","nature","nature","school","true",""
"iat","","655","f","126","203244","rainforest","nature","nature","nature","school","true",""
"iat","","1007","f","128","204506","ocean","nature","nature","nature","school","true",""
"iat","","656","j","130","205417","syllabus","school","school","nature","school","true",""
"iat","","535","j","132","206207","semester","school","school","nature","school","true",""
"iat","","1034","f","134","207493","polar","nature","nature","nature","school","true",""
"iat","","1458","f","136","209205","atmosphere","nature","nature","nature","school","true",""
"iat","","572","f","138","210033","ecosystem","nature","nature","nature","school","true",""
"iat","","613","f","140","210900","mountains","nature","nature","nature","school","true",""
"iat","","736","f","142","211891","desert","nature","nature","nature","school","true",""
"iat","","450","f","144","212595","polar","nature","nature","nature","school","true",""
"iat","","853","f","146","213703","ecosystem","nature","nature","nature","school","true",""
"iat","","529","j","148","214486","assignment","school","school","nature","school","true",""
"iat","","3389","j","151","219098","relaxation","serenity","nature or serenity","school or anxiety","nature or serenity","true",""
"iat","","758","f","153","220111","textbook","school","school or anxiety","school or anxiety","nature or serenity","true",""
"iat","","606","f","155","220970","syllabus","school","school or anxiety","school or anxiety","nature or serenity","true",""
"iat","","677","f","157","221902","discomfort","anxiety","school or anxiety","school or anxiety","nature or serenity","true",""
"iat","","633","j","159","222790","calm","serenity","nature or serenity","school or anxiety","nature or serenity","true",""
"iat","","526","j","161","223570","soothing","serenity","nature or serenity","school or anxiety","nature or serenity","true",""
"iat","","606","f","163","224429","graduation","school","school or anxiety","school or anxiety","nature or serenity","true",""
"iat","","773","f","165","225458","worry","anxiety","school or anxiety","school or anxiety","nature or serenity","true",""
"iat","","521","f","167","226234","tension","anxiety","school or anxiety","school or anxiety","nature or serenity","true",""
"iat","","410","f","169","226898","tranquility","serenity","nature or serenity","school or anxiety","nature or serenity","false",""
"iat","","759","j","171","227911","quietude","serenity","nature or serenity","school or anxiety","nature or serenity","true",""
"iat","","437","j","173","228603","balance","serenity","nature or serenity","school or anxiety","nature or serenity","true",""
"iat","","418","j","175","229275","mountains","nature","nature or serenity","school or anxiety","nature or serenity","true",""
"iat","","436","j","177","229964","stress","anxiety","school or anxiety","school or anxiety","nature or serenity","false",""
"iat","","759","f","179","230977","ecosystem","nature","nature or serenity","school or anxiety","nature or serenity","false",""
"iat","","1452","f","181","232684","assignment","school","school or anxiety","school or anxiety","nature or serenity","true",""
"iat","","784","j","183","233722","peace","serenity","nature or serenity","school or anxiety","nature or serenity","true",""
"iat","","496","j","185","234472","panic","anxiety","school or anxiety","school or anxiety","nature or serenity","false",""
"iat","","1566","j","187","236292","atmosphere","nature","nature or serenity","school or anxiety","nature or serenity","true",""
"iat","","865","f","189","237410","agitation","anxiety","school or anxiety","school or anxiety","nature or serenity","true",""
"iat","","804","f","191","238468","dread","anxiety","school or anxiety","school or anxiety","nature or serenity","true",""
"iat","","707","j","193","239428","biodiversity","nature","nature or serenity","school or anxiety","nature or serenity","true",""
"iat","","746","f","195","240427","avoidance","anxiety","school or anxiety","school or anxiety","nature or serenity","true",""
"iat","","631","j","197","241311","composure","serenity","nature or serenity","school or anxiety","nature or serenity","true",""
"iat","","914","j","199","242480","curriculum","school","school or anxiety","school or anxiety","nature or serenity","false",""
"iat","","731","f","201","243466","homework","school","school or anxiety","school or anxiety","nature or serenity","true",""
"iat","","1548","f","203","245268","library","school","school or anxiety","school or anxiety","nature or serenity","true",""
"iat","","740","j","205","246263","ease","serenity","nature or serenity","school or anxiety","nature or serenity","true",""
"iat","","550","j","207","247068","fear","anxiety","school or anxiety","school or anxiety","nature or serenity","false",""
"iat","","1318","j","209","248640","flora","nature","nature or serenity","school or anxiety","nature or serenity","true",""
"iat","","661","f","211","249556","desert","nature","nature or serenity","school or anxiety","nature or serenity","false",""
"iat","","863","j","213","250673","carbon","nature","nature or serenity","school or anxiety","nature or serenity","true",""
"iat","","762","j","215","251689","contentment","serenity","nature or serenity","school or anxiety","nature or serenity","true",""
"iat","","684","f","217","252627","professor","school","school or anxiety","school or anxiety","nature or serenity","true",""
"iat","","625","f","219","253506","polar","nature","nature or serenity","school or anxiety","nature or serenity","false",""
"iat","","869","f","221","254630","sweating","anxiety","school or anxiety","school or anxiety","nature or serenity","true",""
"iat","","1799","j","224","257434","semester","school","school or serenity","nature or anxiety","school or serenity","true",""
"iat","","915","f","226","258604","dread","anxiety","nature or anxiety","nature or anxiety","school or serenity","true",""
"iat","","781","j","228","259640","calm","serenity","school or serenity","nature or anxiety","school or serenity","true",""
"iat","","1018","f","230","260912","flora","nature","nature or anxiety","nature or anxiety","school or serenity","true",""
"iat","","861","j","232","262027","library","school","school or serenity","nature or anxiety","school or serenity","true",""
"iat","","1218","f","234","263501","rainforest","nature","nature or anxiety","nature or anxiety","school or serenity","true",""
"iat","","1070","f","236","264825","ecosystem","nature","nature or anxiety","nature or anxiety","school or serenity","true",""
"iat","","696","f","238","265774","avoidance","anxiety","nature or anxiety","nature or anxiety","school or serenity","true",""
"iat","","570","f","240","266598","panic","anxiety","nature or anxiety","nature or anxiety","school or serenity","true",""
"iat","","930","j","242","267783","contentment","serenity","school or serenity","nature or anxiety","school or serenity","true",""
"iat","","666","f","244","268703","tension","anxiety","nature or anxiety","nature or anxiety","school or serenity","true",""
"iat","","2004","f","246","270960","biodiversity","nature","nature or anxiety","nature or anxiety","school or serenity","true",""
"iat","","841","j","248","272054","professor","school","school or serenity","nature or anxiety","school or serenity","true",""
"iat","","855","j","250","273163","peace","serenity","school or serenity","nature or anxiety","school or serenity","true",""
"iat","","1413","f","252","274830","polar","nature","nature or anxiety","nature or anxiety","school or serenity","true",""
"iat","","838","f","254","275923","curriculum","school","school or serenity","nature or anxiety","school or serenity","false",""
"iat","","490","j","256","276667","balance","serenity","school or serenity","nature or anxiety","school or serenity","true",""
"iat","","607","j","258","277527","quietude","serenity","school or serenity","nature or anxiety","school or serenity","true",""
"iat","","454","f","260","278236","discomfort","anxiety","nature or anxiety","nature or anxiety","school or serenity","true",""
"iat","","808","j","262","279296","graduation","school","school or serenity","nature or anxiety","school or serenity","true",""
"iat","","856","j","264","280406","ease","serenity","school or serenity","nature or anxiety","school or serenity","true",""
"iat","","469","j","266","281128","desert","nature","nature or anxiety","nature or anxiety","school or serenity","false",""
"iat","","555","f","268","281938","atmosphere","nature","nature or anxiety","nature or anxiety","school or serenity","true",""
"iat","","516","f","270","282708","agitation","anxiety","nature or anxiety","nature or anxiety","school or serenity","true",""
"iat","","794","f","272","283757","ocean","nature","nature or anxiety","nature or anxiety","school or serenity","true",""
"iat","","594","f","274","284606","stress","anxiety","nature or anxiety","nature or anxiety","school or serenity","true",""
"iat","","455","f","276","285316","composure","serenity","school or serenity","nature or anxiety","school or serenity","false",""
"iat","","987","j","278","286557","exam","school","school or serenity","nature or anxiety","school or serenity","true",""
"iat","","532","f","280","287344","mountains","nature","nature or anxiety","nature or anxiety","school or serenity","true",""
"iat","","694","j","282","288292","syllabus","school","school or serenity","nature or anxiety","school or serenity","true",""
"iat","","669","j","284","289215","homework","school","school or serenity","nature or anxiety","school or serenity","true",""
"iat","","420","j","286","289888","assignment","school","school or serenity","nature or anxiety","school or serenity","true",""
"iat","","533","f","288","290673","relaxation","serenity","school or serenity","nature or anxiety","school or serenity","false",""
"iat","","1516","f","290","292443","textbook","school","school or serenity","nature or anxiety","school or serenity","false",""
"iat","","723","f","292","293419","carbon","nature","nature or anxiety","nature or anxiety","school or serenity","true",""
"iat","","524","j","294","294196","worry","anxiety","nature or anxiety","nature or anxiety","school or serenity","false",""
"questionnaire","","34685","{""Q0"":3,""Q1"":1,""Q2"":1,""Q3"":2,""Q4"":1,""Q5"":2,""Q6"":3,""Q7"":2,""Q8"":2,""Q9"":3}","296","329139","","","","","","","[0,1,2,3,4,5,6,7,8,9]"
